File: Non-charring/PMMA/NIST/NIST_TGA_N2_10K_1.csv
Time,Temperature,Mass
s,K,mg
0,300.997,4.1661
3,301.087,4.16567
6,301.183,4.16635
9,301.281,4.16655
12,301.389,4.16485
15,301.501,4.16515
18,301.623,4.16532
21,301.747,4.16492
24,301.878,4.16487
27,302.02,4.16615
30,302.167,4.16757
33,302.3211,4.1663
36,302.481,4.1654
39,302.648,4.16555
42,302.824,4.16515
45,303.007,4.16622
48,303.196,4.16625
51,303.398,4.16532
54,303.605,4.1666
57,303.818,4.16715
60,304.041,4.1663
63,304.269,4.16648
66,304.5071,4.16662
69,304.756,4.16658
72,305.012,4.1667
75,305.275,4.1667
78,305.546,4.16625
81,305.827,4.1654
84,306.117,4.16537
87,306.413,4.16535
90,306.72,4.1654
93,307.031,4.1661
96,307.352,4.1671
99,307.683,4.16667
102,308.018,4.16662
105,308.362,4.16655
108,308.7159,4.16505
111,309.076,4.16425
114,309.449,4.16548
117,309.827,4.16503
120,310.213,4.164
123,310.607,4.16313
126,311.007,4.16275
129,311.415,4.16325
132,311.8319,4.16345
135,312.258,4.1633
138,312.693,4.16355
141,313.134,4.16368
144,313.58,4.16425
147,314.034,4.16375
150,314.495,4.16403
153,314.962,4.165
156,315.439,4.16432
159,315.922,4.16385
162,316.409,4.1653
165,316.905,4.16535
168,317.406,4.16522
171,317.913,4.16477
174,318.428,4.16522
177,318.949,4.1658
180,319.473,4.16675
183,320.003,4.16503
186,320.5371,4.16363
189,321.077,4.1635
192,321.623,4.1647
195,322.172,4.16472
198,322.73,4.16468
201,323.288,4.1655
204,323.8529,4.1659
207,324.423,4.16565
210,324.996,4.16535
213,325.576,4.16595
216,326.158,4.16662
219,326.742,4.16527
222,327.329,4.16525
225,327.922,4.16525
228,328.517,4.1646
231,329.118,4.16385
234,329.723,4.16442
237,330.331,4.16487
240,330.942,4.16442
243,331.555,4.16418
246,332.173,4.16332
249,332.79,4.16197
252,333.412,4.16178
255,334.035,4.16202
258,334.66,4.16263
261,335.2879,4.16268
264,335.919,4.16282
267,336.5489,4.16332
270,337.182,4.16387
273,337.819,4.16503
276,338.455,4.1661
279,339.097,4.16698
282,339.738,4.16622
285,340.381,4.16572
288,341.023,4.16627
291,341.666,4.16775
294,342.313,4.16893
297,342.96,4.16933
300,343.607,4.16893
303,344.254,4.16762
306,344.904,4.16655
309,345.551,4.16595
312,346.2,4.16577
315,346.851,4.16582
318,347.5021,4.16525
321,348.154,4.16513
324,348.809,4.1649
327,349.462,4.1613
330,350.117,4.16258
333,350.773,4.16895
336,351.427,4.16993
339,352.084,4.16878
342,352.74,4.16777
345,353.397,4.16675
348,354.054,4.16598
351,354.713,4.1658
354,355.372,4.166
357,356.032,4.16615
360,356.693,4.1667
363,357.354,4.16798
366,358.017,4.16798
369,358.679,4.16745
372,359.3421,4.16667
375,360.005,4.1662
378,360.67,4.16585
381,361.334,4.16445
384,362,4.16323
387,362.666,4.16355
390,363.3299,4.16405
393,363.995,4.16415
396,364.661,4.16395
399,365.325,4.16342
402,365.991,4.16282
405,366.657,4.163
408,367.321,4.16363
411,367.987,4.16415
414,368.651,4.16458
417,369.315,4.1647
420,369.976,4.16435
423,370.637,4.16475
426,371.299,4.16535
429,371.961,4.16508
432,372.623,4.16465
435,373.285,4.1646
438,373.9459,4.1642
441,374.606,4.16358
444,375.266,4.16387
447,375.924,4.16442
450,376.581,4.16487
453,377.237,4.16553
456,377.891,4.16627
459,378.545,4.16675
462,379.198,4.16685
465,379.852,4.1663
468,380.504,4.16605
471,381.154,4.16655
474,381.805,4.16722
477,382.453,4.16595
480,383.101,4.16403
483,383.745,4.1636
486,384.387,4.16477
489,385.033,4.16485
492,385.676,4.1643
495,386.318,4.16563
498,386.961,4.16745
501,387.6001,4.16698
504,388.238,4.16563
507,388.876,4.16448
510,389.512,4.16405
513,390.147,4.1642
516,390.784,4.16285
519,391.419,4.15962
522,392.051,4.16118
525,392.684,4.16555
528,393.311,4.16585
531,393.939,4.16545
534,394.568,4.16572
537,395.194,4.16648
540,395.821,4.16643
543,396.447,4.16632
546,397.0699,4.1666
549,397.696,4.1668
552,398.321,4.16685
555,398.945,4.1667
558,399.567,4.16617
561,400.185,4.16635
564,400.803,4.16627
567,401.419,4.166
570,402.036,4.16555
573,402.654,4.16545
576,403.27,4.1655
579,403.886,4.16508
582,404.501,4.16482
585,405.1139,4.16503
588,405.7269,4.16563
591,406.338,4.16558
594,406.948,4.16432
597,407.558,4.1635
600,408.167,4.16382
603,408.775,4.1635
606,409.38,4.16297
609,409.984,4.16337
612,410.587,4.16482
615,411.189,4.16617
618,411.791,4.16553
621,412.39,4.16377
624,412.99,4.16285
627,413.588,4.16435
630,414.187,4.16527
633,414.783,4.1639
636,415.379,4.163
639,415.973,4.16295
642,416.565,4.1631
645,417.159,4.16323
648,417.75,4.16337
651,418.339,4.16395
654,418.93,4.16453
657,419.518,4.16505
660,420.104,4.16532
663,420.689,4.16513
666,421.271,4.16495
669,421.853,4.1648
672,422.434,4.16453
675,423.014,4.16422
678,423.596,4.1641
681,424.175,4.16408
684,424.754,4.16425
687,425.329,4.16453
690,425.905,4.16422
693,426.478,4.16365
696,427.049,4.16323
699,427.619,4.16327
702,428.1879,4.16327
705,428.756,4.16327
708,429.324,4.1634
711,429.89,4.16313
714,430.454,4.16225
717,431.017,4.16165
720,431.577,4.16038
723,432.138,4.1584
726,432.697,4.1665
729,433.252,4.1656
732,433.812,4.16487
735,434.369,4.16468
738,434.927,4.1647
741,435.484,4.16405
744,436.038,4.16263
747,436.591,4.16165
750,437.143,4.16145
753,437.693,4.1622
756,438.242,4.16287
759,438.7919,4.16185
762,439.338,4.1595
765,439.884,4.1606
768,440.431,4.1626
771,440.976,4.16057
774,441.522,4.1595
777,442.065,4.15905
780,442.6081,4.15928
783,443.148,4.16005
786,443.687,4.161
789,444.227,4.16102
792,444.764,4.1601
795,445.302,4.15988
798,445.84,4.16042
801,446.378,4.16063
804,446.914,4.16042
807,447.447,4.15957
810,447.98,4.15888
813,448.514,4.15923
816,449.047,4.16005
819,449.581,4.15992
822,450.113,4.15878
825,450.641,4.1575
828,451.171,4.1567
831,451.699,4.15617
834,452.2251,4.1558
837,452.756,4.15565
840,453.283,4.1561
843,453.81,4.1559
846,454.338,4.15465
849,454.861,4.1542
852,455.387,4.15377
855,455.915,4.15225
858,456.441,4.15092
861,456.967,4.15113
864,457.4909,4.15218
867,458.014,4.15218
870,458.534,4.15187
873,459.056,4.15195
876,459.578,4.15197
879,460.1,4.15068
882,460.621,4.14995
885,461.14,4.1513
888,461.659,4.152
891,462.1759,4.14857
894,462.695,4.14432
897,463.213,4.1436
900,463.732,4.14702
903,464.25,4.14643
906,464.7669,4.14213
909,465.283,4.14005
912,465.797,4.13995
915,466.308,4.1405
918,466.823,4.14063
921,467.336,4.14058
924,467.8491,4.14015
927,468.363,4.13845
930,468.874,4.1364
933,469.384,4.13573
936,469.895,4.1361
939,470.405,4.13595
942,470.916,4.13515
945,471.428,4.13452
948,471.94,4.13415
951,472.45,4.13395
954,472.958,4.13417
957,473.466,4.13405
960,473.972,4.13235
963,474.482,4.1306
966,474.991,4.12945
969,475.501,4.12892
972,476.009,4.1289
975,476.515,4.1288
978,477.02,4.12797
981,477.526,4.12655
984,478.031,4.12552
987,478.536,4.12528
990,479.041,4.12485
993,479.546,4.12345
996,480.0491,4.12293
999,480.552,4.12267
1002,481.057,4.1227
1005,481.56,4.122
1008,482.064,4.12138
1011,482.566,4.1201
1014,483.067,4.11815
1017,483.567,4.11808
1020,484.0679,4.11958
1023,484.57,4.11925
1026,485.072,4.11768
1029,485.571,4.11665
1032,486.07,4.11575
1035,486.568,4.114375
1038,487.066,4.11328
1041,487.566,4.11312
1044,488.066,4.11288
1047,488.566,4.11273
1050,489.0669,4.11243
1053,489.566,4.11215
1056,490.063,4.11205
1059,490.56,4.1119
1062,491.059,4.11148
1065,491.559,4.11045
1068,492.06,4.10922
1071,492.558,4.10813
1074,493.057,4.10708
1077,493.555,4.10605
1080,494.051,4.10515
1083,494.548,4.10445
1086,495.045,4.10402
1089,495.538,4.10313
1092,496.033,4.10207
1095,496.527,4.10218
1098,497.023,4.10218
1101,497.52,4.10048
1104,498.016,4.09805
1107,498.5119,4.09732
1110,499.007,4.0975
1113,499.502,4.09712
1116,499.994,4.0952
1119,500.49,4.0939
1122,500.985,4.09423
1125,501.479,4.095
1128,501.976,4.09527
1131,502.472,4.09537
1134,502.966,4.09572
1137,503.461,4.0965
1140,503.954,4.0971
1143,504.446,4.09667
1146,504.9399,4.0957
1149,505.433,4.09435
1152,505.928,4.09278
1155,506.422,4.09115
1158,506.917,4.09055
1161,507.411,4.09052
1164,507.902,4.09018
1167,508.396,4.0896
1170,508.89,4.08883
1173,509.386,4.0881
1176,509.881,4.0872
1179,510.376,4.0852
1182,510.868,4.08275
1185,511.359,4.08232
1188,511.854,4.0822
1191,512.347,4.08165
1194,512.841,4.08137
1197,513.334,4.0819
1200,513.826,4.08182
1203,514.318,4.0801
1206,514.812,4.07757
1209,515.305,4.07657
1212,515.7979,4.07617
1215,516.29,4.07633
1218,516.782,4.07577
1221,517.275,4.07515
1224,517.7659,4.07477
1227,518.258,4.07475
1230,518.751,4.0746
1233,519.243,4.0735
1236,519.736,4.07335
1239,520.228,4.07393
1242,520.718,4.07398
1245,521.211,4.07435
1248,521.704,4.07625
1251,522.197,4.0779
1254,522.692,4.07807
1257,523.184,4.07715
1260,523.675,4.07593
1263,524.17,4.07562
1266,524.662,4.07512
1269,525.157,4.07377
1272,525.651,4.07077
1275,526.144,4.06968
1278,526.637,4.0691
1281,527.129,4.06895
1284,527.621,4.06925
1287,528.113,4.06928
1290,528.605,4.06873
1293,529.098,4.06548
1296,529.592,4.06507
1299,530.085,4.07265
1302,530.579,4.07058
1305,531.074,4.06823
1308,531.568,4.06742
1311,532.061,4.06633
1314,532.553,4.0656
1317,533.045,4.0647
1320,533.538,4.065
1323,534.032,4.065
1326,534.528,4.06477
1329,535.021,4.064
1332,535.514,4.0634
1335,536.008,4.06375
1338,536.502,4.06377
1341,536.996,4.06272
1344,537.49,4.06182
1347,537.982,4.06148
1350,538.474,4.06098
1353,538.9661,4.06098
1356,539.461,4.0606
1359,539.955,4.05995
1362,540.448,4.05975
1365,540.941,4.0589
1368,541.435,4.0568
1371,541.927,4.05612
1374,542.42,4.05618
1377,542.914,4.05638
1380,543.406,4.05725
1383,543.899,4.05797
1386,544.391,4.05538
1389,544.8831,4.05257
1392,545.376,4.04977
1395,545.87,4.05182
1398,546.363,4.05597
1401,546.857,4.05575
1404,547.35,4.05372
1407,547.844,4.05255
1410,548.337,4.05222
1413,548.832,4.0521
1416,549.327,4.0519
1419,549.821,4.05115
1422,550.315,4.04977
1425,550.808,4.04868
1428,551.299,4.0474
1431,551.792,4.04645
1434,552.286,4.04578
1437,552.78,4.04592
1440,553.275,4.04628
1443,553.77,4.04685
1446,554.264,4.04715
1449,554.758,4.0461
1452,555.253,4.04433
1455,555.747,4.04365
1458,556.241,4.04328
1461,556.733,4.0419
1464,557.225,4.04022
1467,557.718,4.03958
1470,558.21,4.0391
1473,558.703,4.03787
1476,559.198,4.0361
1479,559.689,4.03407
1482,560.184,4.032
1485,560.678,4.0277
1488,561.172,4.02772
1491,561.667,4.03247
1494,562.159,4.03342
1497,562.652,4.03487
1500,563.147,4.03295
1503,563.642,4.02907
1506,564.136,4.02745
1509,564.631,4.02625
1512,565.125,4.025
1515,565.618,4.02352
1518,566.111,4.0215
1521,566.605,4.01935
1524,567.096,4.01805
1527,567.589,4.01715
1530,568.082,4.01515
1533,568.576,4.01223
1536,569.071,4.0102
1539,569.566,4.0088
1542,570.061,4.0075
1545,570.558,4.00743
1548,571.053,4.0073
1551,571.548,4.0069
1554,572.043,4.00735
1557,572.5361,4.00728
1560,573.03,4.00715
1563,573.525,4.00648
1566,574.019,4.00408
1569,574.515,3.9996
1572,575.01,3.99707
1575,575.505,3.99467
1578,576.003,3.99277
1581,576.5,3.99075
1584,576.996,3.98892
1587,577.491,3.98747
1590,577.986,3.9859
1593,578.4801,3.98435
1596,578.974,3.98285
1599,579.469,3.9803
1602,579.963,3.97728
1605,580.457,3.97623
1608,580.952,3.97623
1611,581.447,3.97515
1614,581.942,3.97338
1617,582.438,3.97135
1620,582.933,3.96858
1623,583.428,3.96595
1626,583.922,3.96365
1629,584.419,3.96157
1632,584.913,3.95955
1635,585.408,3.95713
1638,585.902,3.9546
1641,586.395,3.9524
1644,586.887,3.94988
1647,587.381,3.946
1650,587.877,3.94275
1653,588.373,3.94107
1656,588.871,3.93898
1659,589.367,3.93675
1662,589.864,3.9338
1665,590.358,3.93173
1668,590.852,3.9289
1671,591.346,3.92535
1674,591.841,3.92125
1677,592.3359,3.9176
1680,592.831,3.9144
1683,593.3261,3.91075
1686,593.821,3.90785
1689,594.315,3.90538
1692,594.81,3.90277
1695,595.305,3.89825
1698,595.799,3.89275
1701,596.295,3.88732
1704,596.789,3.88188
1707,597.284,3.87727
1710,597.779,3.87252
1713,598.272,3.86732
1716,598.767,3.8616
1719,599.261,3.85625
1722,599.755,3.85125
1725,600.25,3.8465
1728,600.743,3.84013
1731,601.236,3.83407
1734,601.73,3.82765
1737,602.224,3.82117
1740,602.719,3.8145
1743,603.214,3.80695
1746,603.709,3.79948
1749,604.204,3.7927
1752,604.699,3.78437
1755,605.194,3.7734
1758,605.689,3.76285
1761,606.185,3.7544
1764,606.6799,3.7451
1767,607.176,3.73395
1770,607.672,3.7252
1773,608.167,3.71593
1776,608.662,3.7047
1779,609.155,3.69327
1782,609.648,3.68167
1785,610.142,3.66903
1788,610.636,3.65698
1791,611.132,3.64487
1794,611.627,3.633
1797,612.122,3.6225
1800,612.619,3.59682
1803,613.113,3.58535
1806,613.609,3.57553
1809,614.104,3.56448
1812,614.599,3.53267
1815,615.094,3.51283
1818,615.59,3.4947
1821,616.085,3.47793
1824,616.581,3.4616
1827,617.075,3.44518
1830,617.569,3.42875
1833,618.065,3.4074
1836,618.563,3.38695
1839,619.06,3.36557
1842,619.558,3.3439
1845,620.053,3.32275
1848,620.547,3.30065
1851,621.039,3.27755
1854,621.535,3.25498
1857,622.03,3.22873
1860,622.526,3.20428
1863,623.02,3.18023
1866,623.515,3.15438
1869,624.008,3.1278
1872,624.501,3.09845
1875,624.995,3.07013
1878,625.49,3.04125
1881,625.984,3.01427
1884,626.481,2.98468
1887,626.977,2.95037
1890,627.471,2.9192
1893,627.965,2.899
1896,628.458,2.86408
1899,628.9499,2.8299
1902,629.445,2.7979
1905,629.94,2.76445
1908,630.436,2.73182
1911,630.931,2.69675
1914,631.426,2.66282
1917,631.92,2.62557
1920,632.413,2.58835
1923,632.909,2.55177
1926,633.403,2.51453
1929,633.8981,2.47707
1932,634.3941,2.43672
1935,634.8899,2.39813
1938,635.387,2.35585
1941,635.882,2.31718
1944,636.378,2.27828
1947,636.874,2.2402
1950,637.368,2.20075
1953,637.864,2.1614
1956,638.361,2.12087
1959,638.857,2.08017
1962,639.353,2.03973
1965,639.85,1.99925
1968,640.344,1.95995
1971,640.84,1.91798
1974,641.336,1.87457
1977,641.83,1.83382
1980,642.3259,1.79277
1983,642.823,1.75185
1986,643.321,1.71008
1989,643.818,1.66765
1992,644.315,1.62615
1995,644.8101,1.58522
1998,645.304,1.54025
2001,645.799,1.50092
2004,646.293,1.4657
2007,646.787,1.42543
2010,647.282,1.38598
2013,647.776,1.34305
2016,648.269,1.30738
2019,648.763,1.2641
2022,649.258,1.22657
2025,649.752,1.18695
2028,650.246,1.1499
2031,650.74,1.11105
2034,651.233,1.07387
2037,651.727,1.03658
2040,652.22,1.00265
2043,652.714,0.966125
2046,653.206,0.932275
2049,653.698,0.89335
2052,654.192,0.8587
2055,654.685,0.82525
2058,655.18,0.7926248
2061,655.675,0.759275
2064,656.17,0.7284
2067,656.665,0.6967
2070,657.16,0.665875
2073,657.656,0.63515
2076,658.152,0.606625
2079,658.649,0.57865
2082,659.145,0.553175
2085,659.642,0.526325
2088,660.141,0.49905
2091,660.641,0.4735
2094,661.141,0.449275
2097,661.641,0.427675
2100,662.142,0.4051
2103,662.642,0.382575
2106,663.14,0.360825
2109,663.64,0.340775
2112,664.141,0.321175
2115,664.642,0.30445
2118,665.143,0.28765
2121,665.644,0.273675
2124,666.144,0.2573
2127,666.644,0.2445
2130,667.143,0.2312
2133,667.6431,0.220525
2136,668.142,0.2012
2139,668.641,0.190175
2142,669.141,0.18085
2145,669.641,0.17365
2148,670.143,0.159325
2151,670.644,0.1502
2154,671.143,0.1421
2157,671.645,0.135125
2160,672.145,0.125475
2163,672.645,0.116
2166,673.146,0.10795
2169,673.646,0.1007
2172,674.145,0.0939752
2175,674.643,0.08775
2178,675.143,0.080225
2181,675.6429,0.0728
2184,676.142,0.0676751
2187,676.642,0.062575
2190,677.143,0.0563749
2193,677.642,0.0510502
2196,678.142,0.0468249
2199,678.642,0.0424502
2202,679.142,0.0383248
2205,679.641,0.03495
2208,680.1411,0.03245012
2211,680.641,0.02975
2214,681.14,0.0269499
2217,681.64,0.0219749
2220,682.14,0.0181249
2223,682.642,0.0177248
2226,683.1421,0.0181501
2229,683.6421,0.0170502
2232,684.144,0.005375119
2235,684.642,0.007249946
2238,685.141,0.008524879
2241,685.64,0.004624937
2244,686.139,0.003024995
2247,686.639,0.003200009
2250,687.139,0.003699991
2253,687.64,0.003400002
2256,688.138,0.002349998
2259,688.638,0.000850011
2262,689.1351,-0.000575
2265,689.633,-0.002224982
2268,690.132,-0.003799988
2271,690.63,-0.005574944
2274,691.128,-0.007249946
2277,691.626,-0.007950172
2280,692.124,-0.007950172
2283,692.623,-0.007924984
2286,693.119,-0.008474922
2289,693.616,-0.008799848
2292,694.115,-0.01230014
2295,694.611,-0.0135998
2298,695.107,-0.0130999
2301,695.603,-0.008400198
2304,696.099,-0.007024933
2307,696.595,-0.008725123
2310,697.091,-0.0108002
2313,697.586,-0.0123749
2316,698.08,-0.01345
2319,698.573,-0.0143248
2322,699.065,-0.0149999
2325,699.559,-0.016025
2328,700.051,-0.0165502
2331,700.543,-0.0157501
2334,701.037,-0.0142002
2337,701.5319,-0.013675
2340,702.023,-0.0138001
2343,702.516,-0.0147749
2346,703.011,-0.0156002
2349,703.503,-0.0154499
2352,703.998,-0.0143748
2355,704.492,-0.0130251
2358,704.9841,-0.012225
2361,705.476,-0.013125
2364,705.969,-0.0157501
2367,706.462,-0.0171001
2370,706.955,-0.0173251
2373,707.448,-0.0172
2376,707.94,-0.0169498
2379,708.432,-0.01687512
2382,708.926,-0.0169998
2385,709.42,-0.0173251
2388,709.915,-0.0178999
2391,710.41,-0.0183751
2394,710.904,-0.0182752
2397,711.399,-0.0181001
2400,711.894,-0.01865
2403,712.388,-0.018875
2406,712.883,-0.0190001
2409,713.378,-0.0194502
2412,713.873,-0.0202499
2415,714.367,-0.020875
2418,714.862,-0.0207751
2421,715.355,-0.0207251
2424,715.85,-0.021275
2427,716.344,-0.0207251
2430,716.839,-0.0191752
2433,717.335,-0.0190001
2436,717.83,-0.0185249
2439,718.324,-0.0167752
2442,718.819,-0.0159251
2445,719.314,-0.015625
2448,719.809,-0.0155498
2451,720.304,-0.016025
2454,720.7981,-0.0166749
2457,721.293,-0.0169498
2460,721.788,-0.0167001
2463,722.2829,-0.015125
2466,722.778,-0.0144252
2469,723.272,-0.016075
2472,723.768,-0.019375
2475,724.262,-0.0197999
2478,724.759,-0.01965
2481,725.253,-0.019425
2484,725.747,-0.0190749
2487,726.241,-0.0185249
2490,726.735,-0.0187
2493,727.229,-0.020325
2496,727.724,-0.0236251
2499,728.22,-0.0214501
2502,728.716,-0.0167752
2505,729.211,-0.01662492
2508,729.706,-0.0167001
2511,730.202,-0.016575
2514,730.697,-0.016525
2517,731.195,-0.017475
2520,731.69,-0.0190249
2523,732.185,-0.0191752
2526,732.679,-0.0186001
2529,733.171,-0.0183998
2532,733.666,-0.0191752
2535,734.16,-0.0197251
2538,734.656,-0.0195249
2541,735.152,-0.0187499
2544,735.646,-0.0181001
2547,736.14,-0.0220752
2550,736.635,-0.0183499
2553,737.132,-0.0160498
2556,737.629,-0.0190001
2559,738.126,-0.0222251
2562,738.621,-0.024
2565,739.116,-0.01395
2568,739.612,-0.0151002
2571,740.106,-0.0159751
2574,740.602,-0.0152501
2577,741.097,-0.01504983
2580,741.593,-0.0161749
2583,742.089,-0.0215752
2586,742.584,-0.0235999
2589,743.079,-0.0230999
2592,743.575,-0.019875
2595,744.071,-0.0176001
2598,744.568,-0.01625
2601,745.065,-0.0163
2604,745.562,-0.0164998
2607,746.058,-0.01585
2610,746.553,-0.0158999
2613,747.048,-0.0173751
2616,747.543,-0.0177
2619,748.04,-0.0177248
2622,748.537,-0.01775
2625,749.035,-0.01775
2628,749.531,-0.01687512
2631,750.027,-0.0158
2634,750.522,-0.0154999
2637,751.015,-0.015525
2640,751.51,-0.0176001
2643,752.005,-0.019425
2646,752.501,-0.018925
2649,752.997,-0.0183751
2652,753.492,-0.018425
2655,753.988,-0.0185249
2658,754.482,-0.0190501
2661,754.979,-0.0343249
2664,755.478,-0.0291001
2667,755.974,-0.0252249
2670,756.471,-0.0241998
2673,756.968,-0.004925094
2676,757.463,-0.007775116
2679,757.96,-0.0122502
2682,758.456,-0.0137002
2685,758.954,-0.0142249
2688,759.45,-0.0137249
2691,759.944,-0.0139252
2694,760.441,-0.0151002
2697,760.935,-0.0153248
2700,761.432,-0.0144999
2703,761.93,-0.0140499
2706,762.428,-0.0145998
2709,762.927,-0.0157001
2712,763.425,-0.0158252
2715,763.921,-0.0157501
2718,764.417,-0.01622485
2721,764.912,-0.01675002
2724,765.406,-0.0169251
2727,765.9018,-0.018925
2730,766.398,-0.0211
2733,766.895,-0.02105
2736,767.391,-0.0195749
2739,767.888,-0.0200501
2742,768.385,-0.0286501
2745,768.882,-0.021775
2748,769.379,-0.0152748
2751,769.876,-0.0129248
2754,770.376,-0.0140998
2757,770.873,-0.0154499
2760,771.371,-0.01610017
2763,771.868,-0.0164998
2766,772.365,-0.0168
2769,772.863,-0.0166749
2772,773.36,-0.0163999
2775,773.857,-0.0163
2778,774.354,-0.01662492
2781,774.85,-0.0175502
2784,775.344,-0.0195249
2787,775.841,-0.0202998
2790,776.337,-0.0183499
2793,776.834,-0.0170749
2796,777.331,-0.0193498
2799,777.826,-0.02002488
2802,778.322,-0.018425
2805,778.819,-0.019375
2808,779.315,-0.0212998
2811,779.814,-0.0195249
2814,780.312,-0.0157249
2817,780.81,-0.0148
2820,781.308,-0.016025
2823,781.806,-0.0171001
2826,782.303,-0.0169998
2829,782.801,-0.0164251
2832,783.297,-0.0158252
2835,783.795,-0.01610017
2838,784.291,-0.01687512
2841,784.788,-0.0183499
2844,785.285,-0.0191248
2847,785.78,-0.0186748
2850,786.279,-0.0178251
2853,786.777,-0.0181501
2856,787.275,-0.0189502
2859,787.772,-0.019925
2862,788.268,-0.0195501
2865,788.763,-0.0186748
2868,789.26,-0.0185002
2871,789.756,-0.018425
2874,790.255,-0.0185002
2877,790.752,-0.0186001
2880,791.251,-0.0187751
2883,791.746,-0.0186748
2886,792.2429,-0.0177752
2889,792.739,-0.016025
2892,793.236,-0.0145998
2895,793.734,-0.0149999
2898,794.233,-0.0175002
2901,794.731,-0.0195249
2904,795.229,-0.019875
2907,795.726,-0.0192499
2910,796.223,-0.0192999
2913,796.722,-0.01865
2916,797.218,-0.016975
2919,797.715,-0.0167752
2922,798.213,-0.0166749
2925,798.71,-0.01725
2928,799.207,-0.0193998
2931,799.705,-0.0214749
2934,800.201,-0.02290009
2937,800.698,-0.023775
2940,801.197,-0.0231499
2943,801.695,-0.0192999
2946,802.193,-0.01687512
2949,802.692,-0.0166002
2952,803.191,-0.0169998
2955,803.689,-0.0168252
2958,804.188,-0.0154251
2961,804.686,-0.015575
2964,805.184,-0.0173
2967,805.682,-0.0185249
2970,806.181,-0.0188998
2973,806.678,-0.0191248
2976,807.174,-0.0183499
2979,807.673,-0.0163751
2982,808.169,-0.0169251
2985,808.665,-0.0187499
2988,809.164,-0.0191752
2991,809.661,-0.0185002
2994,810.161,-0.01675002
2997,810.66,-0.0156501
3000,811.156,-0.015125
3003,811.655,-0.01465018
3006,812.152,-0.0146749
3009,812.649,-0.0152501
3012,813.147,-0.0185749
3015,813.6441,-0.02944981
3018,814.14,-0.0152249
3021,814.635,-0.017475
3024,815.132,-0.01792504
3027,815.63,-0.0174251
3030,816.127,-0.0172248
3033,816.626,-0.0176501
3036,817.124,-0.017475
3039,817.622,-0.01635
3042,818.121,-0.0160498
3045,818.619,-0.0163
3048,819.116,-0.0167001
3051,819.613,-0.0170502
3054,820.112,-0.0180501
3057,820.61,-0.01844979
3060,821.107,-0.0183499
3063,821.604,-0.0183499
3066,822.101,-0.0193251
3069,822.6,-0.0216751
3072,823.1,-0.02345
3075,823.6,-0.0241998
3078,824.0961,-0.023675
3081,824.594,-0.0223002
3084,825.09,-0.0221251
3087,825.588,-0.0233501
3090,826.087,-0.023675
3093,826.585,-0.0233749
3096,827.085,-0.02354994
3099,827.584,-0.0234748
3102,828.08,-0.0225252
3105,828.58,-0.0209501
3108,829.075,-0.0199502
3111,829.569,-0.01965
3114,830.067,-0.01910006
3117,830.565,-0.0185249
3120,831.062,-0.018925
3123,831.561,-0.019925
3126,832.059,-0.0204002
3129,832.557,-0.02105
3132,833.054,-0.02205
3135,833.55,-0.0210748
3138,834.049,-0.0180501
3141,834.546,-0.017975
3144,835.044,-0.0185249
3147,835.542,-0.0194502
3150,836.039,-0.0202251
3153,836.538,-0.0205748
3156,837.037,-0.020825
3159,837.537,-0.0198251
3162,838.035,-0.0193251
3165,838.533,-0.020375
3168,839.0309,-0.0214501
3171,839.53,-0.0217498
3174,840.028,-0.0211252
3177,840.526,-0.0209002
3180,841.024,-0.0209249
3183,841.522,-0.0206999
3186,842.02,-0.0202251
3189,842.519,-0.0187999
3192,843.015,-0.01739987
3195,843.512,-0.0171501
3198,844.009,-0.0169998
3201,844.508,-0.01725
3204,845.008,-0.0180002
3207,845.508,-0.01832511
3210,846.007,-0.0180002
3213,846.506,-0.0185749
3216,847.005,-0.019925
3219,847.504,-0.01965
3222,848.004,-0.0191752
3225,848.504,-0.0190749
3228,849.002,-0.0192999
3231,849.5,-0.0193998
3234,849.998,-0.0188998
3237,850.494,-0.0180501
3240,850.992,-0.0175502
3243,851.49,-0.0169498
3246,851.989,-0.01662492
3249,852.487,-0.0166749
3252,852.9859,-0.01779994
3255,853.483,-0.0192499
3258,853.98,-0.0196
3261,854.478,-0.0192499
3264,854.9779,-0.0180501
3267,855.477,-0.0172248
3270,855.975,-0.01727519
3273,856.473,-0.01865
3276,856.97,-0.020825
3279,857.468,-0.0214001
3282,857.968,-0.0207998
3285,858.468,-0.019925
3288,858.967,-0.0190001
3291,859.465,-0.0170502
3294,859.962,-0.0153999
3297,860.46,-0.0146749
3300,860.958,-0.0147249
3303,861.457,-0.01610017
3306,861.9559,-0.0191752
3309,862.454,-0.0207499
3312,862.952,-0.0228002
3315,863.45,-0.02345
3318,863.948,-0.0220752
3321,864.446,-0.01897496
3324,864.944,-0.0180002
3327,865.444,-0.017975
3330,865.942,-0.0181001
3333,866.44,-0.0177752
3336,866.938,-0.0178499
3339,867.435,-0.0182
3342,867.933,-0.01825
3345,868.4321,-0.0192751
3348,868.93,-0.0214249
3351,869.43,-0.0211499
3354,869.928,-0.0197751
3357,870.426,-0.0197751
3360,870.924,-0.0201
3363,871.42,-0.0198498
3366,871.918,-0.0198498
3369,872.417,-0.0231499
3372,872.9169,-0.0202751
3375,873.418,-0.0159499
3378,873.918,-0.0164751
3381,874.419,-0.0171501
3384,874.917,-0.0176501
3387,875.415,-0.0173499
3390,875.914,-0.01775
3393,876.411,-0.0198498
3396,876.909,-0.0208502
3399,877.409,-0.0207499
3402,877.907,-0.0194749
3405,878.406,-0.0185749
3408,878.905,-0.0181001
3411,879.404,-0.0167248
3414,879.903,-0.0161249
3417,880.402,-0.0169998
3420,880.898,-0.0207251
3423,881.395,-0.0217498
3426,881.893,-0.0204249
3429,882.392,-0.0182252
3432,882.893,-0.0176001
3435,883.393,-0.0171749
3438,883.892,-0.0178751
3441,884.393,-0.02002488
3444,884.892,-0.02065
3447,885.391,-0.0204249
3450,885.892,-0.0215752
3453,886.391,-0.0187
3456,886.889,-0.0144252
3459,887.389,-0.0149751
3462,887.889,-0.0154251
3465,888.389,-0.0159499
3468,888.889,-0.0171749
3471,889.389,-0.0183998
3474,889.889,-0.01884986
3477,890.388,-0.0185002
3480,890.886,-0.01727519
3483,891.386,-0.0159499
3486,891.885,-0.0164251
3489,892.382,-0.01950013
3492,892.883,-0.0207751
3495,893.38,-0.0212998
3498,893.877,-0.0207499
3501,894.376,-0.01950013
3504,894.874,-0.01884986
3507,895.373,-0.01832511
3510,895.873,-0.0174498
3513,896.373,-0.0180501
3516,896.873,-0.0182
3519,897.372,-0.0171001
3522,897.872,-0.01622485
3525,898.371,-0.0162001
3528,898.871,-0.0167752
3531,899.371,-0.0178251
3534,899.87,-0.0185749
3537,900.37,-0.0183751
3540,900.869,-0.0169251
3543,901.366,-0.0156002
3546,901.867,-0.0152501
3549,902.367,-0.0154999
3552,902.866,-0.017025
3555,903.3659,-0.0177
3558,903.864,-0.0178999
3561,904.363,-0.0183499
3564,904.862,-0.01825
3567,905.36,-0.0166002
3570,905.861,-0.0152249
3573,906.3589,-0.015625
3576,906.857,-0.0172
3579,907.357,-0.0187999
3582,907.854,-0.019425
3585,908.352,-0.01897496
3588,908.8531,-0.01775
3591,909.353,-0.0178751
3594,909.854,-0.018475
3597,910.355,-0.0188251
3600,910.856,-0.0186001
3603,911.355,-0.0187999
3606,911.855,-0.0197999
3609,912.354,-0.0204501
3612,912.852,-0.0206252
3615,913.351,-0.020325
3618,913.849,-0.0176001
3621,914.347,-0.01610017
3624,914.844,-0.0161249
3627,915.341,-0.016975
3630,915.839,-0.0185501
3633,916.336,-0.0188998
3636,916.835,-0.01844979
3639,917.333,-0.0164751
3642,917.831,-0.01585
3645,918.331,-0.0168499
3648,918.8299,-0.0172248
3651,919.33,-0.0167248
3654,919.83,-0.01625
3657,920.327,-0.01610017
3660,920.826,-0.016025
3663,921.3261,-0.0159499
3666,921.827,-0.0168
3669,922.329,-0.0183499
3672,922.832,-0.01844979
3675,923.332,-0.01779994
3678,923.831,-0.0178251
3681,924.33,-0.0185501
3684,924.83,-0.01965
3687,925.3291,-0.0182752
3690,925.829,-0.0164998
3693,926.328,-0.0174251
3696,926.827,-0.0176501
3699,927.325,-0.0173751
3702,927.824,-0.0173499
3705,928.3231,-0.0175749
3708,928.822,-0.0177
3711,929.325,-0.0177752
3714,929.825,-0.0178499
3717,930.326,-0.0178751
3720,930.825,-0.0181748
3723,931.325,-0.0191248
3726,931.824,-0.0221751
3729,932.323,-0.0209249
3732,932.824,-0.01282489
3735,933.322,-0.01465018
3738,933.821,-0.015075
3741,934.32,-0.0152001
3744,934.818,-0.0153752
3747,935.317,-0.0156501
3750,935.818,-0.0162001
3753,936.318,-0.0164998
3756,936.82,-0.0164251
3759,937.319,-0.01635
3762,937.817,-0.01622485
3765,938.316,-0.0163999
3768,938.815,-0.0170749
3771,939.314,-0.0178251
3774,939.815,-0.0188998
3777,940.315,-0.0197499
3780,940.817,-0.02065
3783,941.318,-0.02155
3786,941.819,-0.0210248
3789,942.316,-0.018475
3792,942.814,-0.0163999
3795,943.312,-0.015625
3798,943.811,-0.01399991
3801,944.3111,-0.01245
3804,944.813,-0.0135751
3807,945.313,-0.0149
3810,945.813,-0.0152001
3813,946.312,-0.0157748
3816,946.81,-0.0165502
3819,947.309,-0.0171501
3822,947.807,-0.01792504
3825,948.306,-0.0183998
3828,948.804,-0.0187751
3831,949.305,-0.0186001
3834,949.805,-0.01832511
3837,950.304,-0.0182999
3840,950.804,-0.019425
3843,951.303,-0.02002488
3846,951.802,-0.0196752
3849,952.299,-0.0181748
3852,952.797,-0.0169498
3855,953.296,-0.017025
3858,953.795,-0.0170749
3861,954.296,-0.0170749
3864,954.797,-0.0172248
3867,955.298,-0.0176501
3870,955.796,-0.0183751
3873,956.295,-0.0193251
3876,956.7942,-0.0197751
3879,957.292,-0.019875
3882,957.794,-0.0197
3885,958.295,-0.0195501
3888,958.795,-0.0192499
3891,959.294,-0.0181249
3894,959.7939,-0.0172
3897,960.294,-0.01622485
3900,960.793,-0.0149499
3903,961.294,-0.0135998
3906,961.796,-0.01335006
3909,962.297,-0.0137749
3912,962.798,-0.014125
3915,963.297,-0.01452508
3918,963.798,-0.015125
3921,964.297,-0.0156002
3924,964.797,-0.0164499
3927,965.297,-0.0169251
3930,965.796,-0.0171501
3933,966.296,-0.0182999
3936,966.795,-0.0192252
3939,967.294,-0.0190249
3942,967.794,-0.0182252
3945,968.295,-0.0182752
3948,968.797,-0.0183751
3951,969.296,-0.01727519
3954,969.794,-0.0162748
3957,970.2921,-0.0164499
3960,970.792,-0.0175002
3963,971.291,-0.0186248
3966,971.793,-0.0192
3969,972.294,-0.0190249
3972,972.792,-0.0189502
3975,973.291,-0.0187252
3978,973.791,-0.0185249
3981,974.29,-0.0180501
3984,974.788,-0.0173751
3987,975.288,-0.0167248
3990,975.787,-0.016025
3993,976.286,-0.0178251
3996,976.786,-0.0200001
3999,977.286,-0.0195501
4002,977.785,-0.01897496
4005,978.284,-0.01844979
4008,978.7831,-0.0185002
4011,979.282,-0.0197251
4014,979.781,-0.0207251
4017,980.279,-0.0209749
4020,980.779,-0.0215752
4023,981.279,-0.0219001
4026,981.778,-0.0207251
4029,982.278,-0.0195249
4032,982.7771,-0.019925
4035,983.275,-0.0205249
4038,983.775,-0.020875
4041,984.276,-0.019925
4044,984.775,-0.0187751
4047,985.277,-0.0187252
4050,985.7771,-0.0181748
4053,986.277,-0.0169498
4056,986.777,-0.0157748
4059,987.276,-0.0159251
4062,987.777,-0.0171249
4065,988.277,-0.0173251
4068,988.779,-0.0159751
4071,989.282,-0.01585
4074,989.783,-0.0174251
4077,990.285,-0.0193998
4080,990.784,-0.0203498
4083,991.283,-0.0201
4086,991.784,-0.0192999
4089,992.285,-0.0197751
4092,992.787,-0.0210001
4095,993.286,-0.020825
4098,993.784,-0.0198498
4101,994.282,-0.0191248
4104,994.78,-0.018425
4107,995.278,-0.0185501
4110,995.777,-0.0195749
4113,996.277,-0.0193998
4116,996.776,-0.0187
4119,997.276,-0.01825
4122,997.776,-0.0169251
4125,998.276,-0.0177248
4128,998.775,-0.0219749
4131,999.272,-0.0129248
4134,999.77,-0.0152001